Folder: analyze_fetal_chd_flows/results/log

Note: results/log/all_derived_flows.txt
Group                  SubGroup                CaseNo    MPA     AAo     SVC     DA      DAo     PBF     UV      FO      IVC     CA      CS      CVO 
    __________    _______________________________    ______    ____    ____    ____    ____    ____    ____    ____    ____    ____    ____    ____    ____

    {'Normal'}    {'Normal'                     }       1      211     230     118      134    265      95     128      149    265      14      14     455 
    {'Normal'}    {'Normal'                     }       2      312     222     206      276    276     114     138      125    276      17      17     551 
    {'Normal'}    {'Normal'                     }       3      264     187     150      240    277      48     165      153    277      14      14     465 
    {'Normal'}    {'Normal'                     }       4      241     206     134      182    220      87      97      133    220      14      14     461 
    {'Normal'}    {'Normal'                     }       5      236     236      83      192    310      43      95      208    310      15      15     487 
    {'Normal'}    {'Normal'                     }       6      263     281     165      117    230     169     110      129    230      17      17     561 
    {'Normal'}    {'Normal'                     }       7      273     218     121      210    302     107     126      126    302      15      15     506 
    {'Normal'}    {'Normal'                     }       8      224     238     148      152    257      72     109      180    257      14      14     476 
    {'Normal'}    {'Normal'                     }       9      201     193     162      188    244      43      92      162    244      12      12     406 
    {'Normal'}    {'Normal'                     }      10      297     189     114      169    210      74     141      130    210      15      15     501 
    {'Normal'}    {'Normal'                     }      11      238     145     110      145    226      44     137      113    226      12      12     395 
    {'Normal'}    {'Normal'                     }      12      313     137     138      211    235      85     126       66    235      14      14     464 
    {'Normal'}    {'Normal'                     }      13      242     225     130      173    300      93     130      146    300      14      14     481 
    {'Normal'}    {'Normal'                     }      14      241     198     189      145    257      64     141      148    257      14      14     453 
    {'Normal'}    {'Normal'                     }      15      215     200      99      136    230      93      71      120    230      13      13     428 
    {'Normal'}    {'Normal'                     }      16      254     236      70      174    184      79      93      172    184      15      15     505 
    {'Normal'}    {'Normal'                     }      17      240     158     125      209    237      32     115      138    237      12      12     410 
    {'Normal'}    {'Normal'              

Note: results/log/all_measured_flows.txt
Group                  SubGroup                CaseNo    MPA     AAo     SVC     DA      DAo     PBF     UV  
    __________    _______________________________    ______    ____    ____    ____    ____    ____    ____    ____

    {'Normal'}    {'Normal'                     }       1      211     230     118      134    265      95     128 
    {'Normal'}    {'Normal'                     }       2      241     206     134      182    220      87      97 
    {'Normal'}    {'Normal'                     }       3      236     236      83      192    310      43      95 
    {'Normal'}    {'Normal'                     }       4      263     281     165      117    230     169     110 
    {'Normal'}    {'Normal'                     }       5      224     238     148      152    257     NaN     109 
    {'Normal'}    {'Normal'                     }       6      238     145     110      145    226      44     137 
    {'Normal'}    {'Normal'                     }       7      297     189     114      169    210      74     141 
    {'Normal'}    {'Normal'                     }       8      201     193     162      188    244      43      92 
    {'Normal'}    {'Normal'                     }       9      313     137     138      211    235      85     126 
    {'Normal'}    {'Normal'                     }      10      242     225     130      173    300      93     130 
    {'Normal'}    {'Normal'                     }      11      215     200      99      136    230      93      71 
    {'Normal'}    {'Normal'                     }      12      240     158     125      209    237      32     115 
    {'Normal'}    {'Normal'                     }      13      254     236      70      174    184      79      93 
    {'Normal'}    {'Normal'                     }      14      251     219     163      159    191      79     128 
    {'Normal'}    {'Normal'                     }      15      265     254     155      216    274      68     196 
    {'Normal'}    {'Normal'                     }      16      260     162     125      NaN    293      22     156 
    {'Normal'}    {'Normal'                     }      17      223     201     189      165    254      82     156 
    {'Normal'}    {'Normal'                     }      18      341     132     125      183    246      78     161 
    {'Normal'}    {'Normal'                     }      19      282     220     131      150    273      85     111 
    {'Normal'}    {'Normal'                     }      20      201     126      90      154    201      97     142 
    {'Normal'}    {'Normal'                     }      21      291     152      79      229    275      58     143 
    {'Normal'}    {'Normal'                     }      22      306     166     119      258    266      84     120 
    {'Normal'}    {'Normal'                     }      23      253     236     133      217    221     NaN     131 
    {'Normal'}    {'Normal'                     }      24      203     239     112      129    247      5

Note: README.md
analyze_fetal_chd_flows

File: group03_TGA.txt
Group 03: TGA
=============

Flow Distribution Model

                                   MPA     AAo     SVC     DA      DAo     PBF     UV      ICS     IVC     CA      CS      CVO
                                   ____    ____    ____    ____    ____    ____    ____    ____    ____    ____    ____    ____

    measured, N (ml/min/kg)         43      43      43      29      43      23      43       0       0       0       0       0
    measured median (ml/min/kg)    198     275     148     115     260      60     136     NaN     NaN     NaN     NaN     NaN
    derived, N (ml/min/kg)          43      43      43      41      43      38      43      31      43      43      43      43
    derived median (ml/min/kg)     198     275     148     120     260      69     136     111     260      15      15     486
    measured, N (%CVO)              43      43      43      29      43      23      43       0       0       0       0       0
    measured median (%CVO)          40      57      28      20      50      14      28     NaN     NaN     NaN     NaN     NaN
    model (%CVO)                    39      58      29      21      50      18      28      21      50       3       3     100

Summary
-------

Measured (ml/min/kg)

                                 MPA     AAo     SVC     DA      DAo     PBF     UV
                                 ____    ____    ____    ____    ____    ____    ____

    N                             43      43      43      29      43      23      43
    mean                         214     277     156     121     256      83     138
    standard deviation            67      92      46      66      58      53      40
    median                       198     275     148     115     260      60     136
    median absolute deviation     42      62      28      24      40      28      26
    16th - 50th pct.              45     105      29      38      72      25      36
    84th - 50th pct.              91     120      46      34      57      76      45

Derived (ml/min/kg)

                                 MPA     AAo     SVC     DA      DAo     PBF     UV      FO      IVC     CA      CS      CVO
                                 ____    ____    ____    ____    ____    ____    ____    ____    ____    ____    ____    ____

    N                             43      43      43      41      43      38      43      31      43      43      43      43
    mean                         214     277     156     135     256      84     138     133     256      15      15     506
    standard deviation            67      92      46      72      58      51      40      99      58       4       4     119
    median                       198     275     148     120     260      69     136     111     260      15      15     486
    median absolute deviation     42      62      28      36      40      32      26      54      40       2       2      79
    16th - 50th pct.              45     105      29      43      72      34      36      61      72       3       3     102
    84th - 50th pct.              91     120      46      74      57      69      45     137      57       4       4     137

Measured (%CVO)

                                 MPA     AAo     SVC     DA      DAo     PBF     UV
                                 ____    ____    ____    ____    ____    ____    ____

    N                             43      43      43      29      43      23      43
    mean                          43      54      32      24      52      16      28
    standard deviation            10      10      11      13      12       8       8
    median                        40      57      28      20      50      14      28
    median absolute deviation      5       5       7       6       6       4       5
    16th - 50th pct.               6      10       7       6      10       5       8
    84th - 50th pct.              10       6      15      13      14      11       7

Derived (%CVO)

                                 MPA     AAo     SVC     DA      DAo     PBF     UV      FO      IVC     CA      CS
                                 ____    ____    ____    ____    ____    ____    ____    ____    ____    ____    ____

    N                             43      43      43      41      43      38      43      31      43      43      43
    mean                          43      54      32      27      52      16      28      29      52       3       3
    standard deviation            10      10      11      15      12       7       8      23      12       0       0
    median                        40      57      28      23      50      14      28      24      50       3       3
    median absolute deviation      5       5       7       8       6       4       5      11       6       0       0
    16th - 50th pct.               6      10       7       8      10       5       8      15      10       0       0
    84th - 50th pct.              10       6      15      19      14      10       7      25      14       0       0

Flows
-----

Measured (ml/min/kg)

    CaseNo    MPA     AAo     SVC     DA      DAo     PBF     UV
    ______    ____    ____    ____    ____    ____    ____    ____

       1      315     440     140     120     290     NaN     155
       2      215     247     260     195     234      58     154
       3      178     230     110     139     183      57     118
       4      210     261      84      83     313      10     138
       5      191     239     156     NaN     241     NaN     135
       6      182     271     134      69     306      46      96
       7      253     319     118      80     299     160     186
       8      220     319     128      51     260     146     156
       9      195     275     137      40     234     105     188
      10      156     203     173     NaN     202     NaN      75
      11      166     274      91     122     294     NaN     163
      12      151     200     234     117     320     NaN     125
      13      244     361     215     NaN     322     NaN     105
      14      209     339     136     121     325     NaN      69
      15      155     403     151      43     296     NaN      94
      16      255     415     144     138     286     240     200
      17      212     395     240      90     246     112     202
      18      152     165     120      99     140     NaN     105
      19      105     142      69     NaN     142     NaN     136
      20      153     198      89     112     226      32     146
      21      219     465     148     122     342     100     228
      22      288     477     161     151     316      96     213
      23      198     308     123     102     242      56     125
      24      171     241     143     NaN     171     NaN     111
      25      297     279     143     139     230     NaN     226
      26      312     290     175     NaN     290     NaN     116
       1      272     213     145     215     249      70     174
       2      214     235     103     NaN     129     NaN     114
       3      130     290     189      91     173      56     100
       4      167     306     127      84     262      84     142
       5      236     404     203     115     317     120     137
       6      153     154     120     NaN     267     NaN     111
[...]
       7       43      54      20      14      51      27      32      17      51      3       3
       8       40      57      23       9      47      26      28      12      47      3       3
       9       40      57      28       8      48      22      39      20      48      3       3
      10       42      55      47      46      55     NaN      20      46      55      3       3
      11       37      60      20      27      65      10      36      24      65      3       3
      12       42      55      65      32      88       9      35      98      88      3       3
      13       39      58      34      28      52      11      17      28      52      3       3
      14       37      60      24      21      58      16      12      22      58      3       3
      15       27      70      26       7      51      19      16       8      51      3       3
      16       37      60      21      20      41      35      29       2      41      3       3
      17       34      63      38      14      39      18      32      15      39      3       3
      18       47      50      37      30      43      16      32      29      43      3       3
      19       41      56      27      27      56      14      53      27      56      3       3
      20       42      55      25      31      62       9      40      32      62      3       3
      21       31      66      21      17      48      14      32       4      48      3       3
      22       37      60      20      19      40      12      27       0      40      3       3
      23       38      59      24      20      46      11      24      11      46      3       3
      24       40      57      34      17      40      23      26      17      40      3       3
      25       50      47      24      23      39      27      38      16      39      3       3
      26       50      47      28      28      47      22      19      28      47      3       3
       1       54      43      29      43      50      14      35     NaN      50      3       3
       2       46      51      22     NaN      28     NaN      25     NaN      28      3       3
       3       30      67      44      21      40      13      23     NaN      40      3       3
       4       34      63      26      17      54      17      29     NaN      54      3       3
       5       36      61      31      17      48      18      21     NaN      48      3       3
       6       48      49      38     NaN      84     NaN      35     NaN      84      3       3
       7       39      58      56      15      55      24      22     NaN      55      3       3
       8       50      47      52      36      52      15      27     NaN      52      3       3
       9       34      63      40      25      47       9      20     NaN      47      3       3
       1       62      35      26      45      55      30      34     NaN      55      3       3
       2       30      67      44      21      40      13      23     NaN      40      3       3
       3       31      66      32      18      52      13      24     NaN      52      3       3
       1       34      63      40      26      47       7      23      24      47      3       3
       2       57      40      43      74      71      15      41      74      71      3       3
       3       66      31      36      71      64       4      27      69      64      3       3
       4       76      21      28      55      48     NaN      18      55      48      3       3
       5       58      39      26      43      56     NaN      28      43      56      3       3