Folder: analyze_fetal_chd_flows/results/log (part 2)

File: subgroup07_TGA_IVS.txt
Sub-Group 07: TGA IVS
=====================

Flow Distribution Model

                                   MPA     AAo     SVC     DA      DAo     PBF     UV      ICS     IVC     CA      CS      CVO
                                   ____    ____    ____    ____    ____    ____    ____    ____    ____    ____    ____    ____

    measured, N (ml/min/kg)         33      34      34      23      34      14      34       0       0       0       0       0
    measured median (ml/min/kg)    191     303     142     102     278      98     137     NaN     NaN     NaN     NaN     NaN
    derived, N (ml/min/kg)          33      34      34      33      34      31      34      34      34      33      33      33
    derived median (ml/min/kg)     191     303     142     107     278      88     137      95     278      16      16     522
    measured, N (%CVO)              33      33      33      23      33      14      33       0       0       0       0       0
    measured median (%CVO)          39      58      26      17      51      15      28     NaN     NaN     NaN     NaN     NaN
    model (%CVO)                    38      59      27      19      51      19      28      19      51       3       3     100

Summary
-------

Measured (ml/min/kg)

                                 MPA     AAo     SVC     DA      DAo     PBF     UV
                                 ____    ____    ____    ____    ____    ____    ____

    N                             33      34      34      23      34      14      34
    mean                         201     308     146     100     263     101     145
    standard deviation            58      85      44      45      56      58      43
    median                       191     303     142     102     278      98     137
    median absolute deviation     38      60      25      30      36      45      32
    16th - 50th pct.              42      75      39      49      76      55      33
    84th - 50th pct.              71     100      37      37      39      56      57

Derived (ml/min/kg)

                                 MPA     AAo     SVC     DA      DAo     PBF     UV      FO      IVC     CA      CS      CVO
                                 ____    ____    ____    ____    ____    ____    ____    ____    ____    ____    ____    ____

    N                             33      34      34      33      34      31      34      34      34      33      33      33
    mean                         201     308     146     105     263      96     145     101     263      16      16     522
    standard deviation            58      85      44      48      56      55      43      69      56       4       4     130
    median                       191     303     142     107     278      88     137      95     278      16      16     522
    median absolute deviation     38      60      25      34      36      37      32      40      36       3       3      97
    16th - 50th pct.              42      75      39      52      76      48      33      56      76       4       4     131
    84th - 50th pct.              71     100      37      46      39      67      57      77      39       3       3     110

Measured (%CVO)

                                 MPA     AAo     SVC     DA      DAo     PBF     UV
                                 ____    ____    ____    ____    ____    ____    ____

    N                             33      33      33      23      33      14      33
    mean                          39      58      29      19      51      18      29
    standard deviation             6       6      10       9      11       9       8
    median                        39      58      26      17      51      15      28
    median absolute deviation      3       3       5       4       5       6       5
    16th - 50th pct.               6       4       5       7      10       6       8
    84th - 50th pct.               4       6      10      12      12      12       9

Derived (%CVO)

                                 MPA     AAo     SVC     DA      DAo     PBF     UV      FO      IVC     CA      CS
                                 ____    ____    ____    ____    ____    ____    ____    ____    ____    ____    ____

    N                             33      33      33      32      33      31      33      33      33      33      33
    mean                          39      58      29      21      51      18      29      22      51       3       3
    standard deviation             6       6      10      10      11       8       8      18      11       0       0
    median                        39      58      26      19      51      16      28      18      51       3       3
    median absolute deviation      3       3       5       7       5       6       5      10       5       0       0
    16th - 50th pct.               6       4       5       7      10       6       8      12      10       0       0
    84th - 50th pct.               4       6      10      11      12      10       9      18      12       0       0

Flows
-----

Measured (ml/min/kg)

    CaseNo    MPA     AAo     SVC     DA      DAo     PBF     UV
    ______    ____    ____    ____    ____    ____    ____    ____

       1      249     331     261     222     328     NaN     162
       2      150     374     133      10     281     152     180
       3      198     308     123     102     242      56     125
       4      151     330     103      72     248      80     184
       5      219     465     148     122     342     100     228
       6      178     298     125     100     350      34     106
       7      288     477     161     151     316      96     213
       8      315     440     140     120     290     NaN     155
       9      178     230     110     139     183      57     118
      10      153     198      89     112     226      31     146
      11      210     261      84     NaN     313     NaN     138
      12      191     239     156     NaN     241     NaN     135
      13      182     271     134      69     306      46      96
      14      253     319     118      80     299     160     186
      15      220     319     128      51     260     146     156
      16      185     395     194     NaN     310     NaN     142
      17      195     275     137      40     234     105     188
      18      156     203     173     NaN     202     NaN      75
      19      166     274      91     122     294     NaN     163
      20      108     204     228     NaN     274     NaN     128
      21      171     241     143     NaN     171     NaN     111
      22      244     361     215     NaN     322     NaN     105
      23      132     252      97     NaN     197     NaN     125
      24      209     339     136     121     325     NaN      69
      25      155     403     151      43     296     NaN      94
      26      146     255     146      61     211     NaN     104
      27      255     415     144     138     286     240     200
      28      212     395     240      90     246     112     202
      29      NaN     408     171     NaN     293     NaN     135
      30      146     159     116      95     135     NaN     101
      31      105     142      69     NaN     142     NaN     136
      32      297     279     143     139     230     NaN     226
[...]
      34       47      50      27      16      39     NaN      30

Derived (%CVO)

    CaseNo    MPA     AAo     SVC     DA      DAo     PBF     UV      FO      IVC     CA      CS
    ______    ____    ____    ____    ____    ____    ____    ____    ____    ____    ____    ____

       1       42      55      44      37      55       5      27      43      55       3       3
       2       28      69      25       2      52      28      33       7      52       3       3
       3       38      59      24      20      46      11      24      11      46       3       3
       4       30      67      21      15      50      16      37       4      50       3       3
       5       31      66      21      17      48      14      32       4      48       3       3
       6       36      61      25      20      71       7      22      36      71       3       3
       7       37      60      20      19      40      12      27       0      40       3       3
       8       40      57      18      15      37      25      20      -1      37       3       3
       9       42      55      26      33      44      14      28      15      44       3       3
      10       42      55      25      31      62       9      40      32      62       3       3
      11       43      54      17      28      64      15      28      28      64       3       3
      12       43      54      35      36      54       7      30      36      54       3       3
      13       39      58      29      15      66      10      21      36      66       3       3
      14       43      54      20      14      51      27      32      17      51       3       3
      15       40      57      23       9      47      26      28      12      47       3       3
      16       31      66      32      18      52      13      24      18      52       3       3
      17       40      57      28       8      48      22      39      20      48       3       3
      18       42      55      47      46      55     NaN      20      46      55       3       3
      19       37      60      20      27      65      10      36      24      65       3       3
      20       34      63      71     NaN      85     NaN      40      93      85       3       3
      21       40      57      34      17      40      23      26      17      40       3       3
      22       39      58      34      28      52      11      17      28      52       3       3
      23       33      64      25      11      50      23      32      11      50       3       3
      24       37      60      24      21      58      16      12      22      58       3       3
      25       27      70      26       7      51      19      16       8      51       3       3
      26       35      62      35      15      51      21      25      25      51       3       3
      27       37      60      21      20      41      35      29       2      41       3       3
      28       34      63      38      14      39      18      32      15      39       3       3
      29      NaN     NaN     NaN     NaN     NaN     NaN     NaN     NaN     NaN     NaN     NaN
      30       46      51      37      30      43      16      32      29      43       3       3
      31       41      56      27      27      56      14      53      27      56       3       3
      32       50      47      24      23      39      27      38      16      39       3       3
      33       50      47      28      28      47      22      19      28      47       3       3
      34       47      50      27      16      39      31      30      16      39       3       3